{
  "domain": "VS",
  "label": "Vital Signs",
  "class": "Findings",
  "class_href": "/mdr/sdtmig/3-4/classes/Findings",
  "ig_version": "3-4",
  "total_variables": 38,
  "variables": [
    {
      "order": "1",
      "name": "STUDYID",
      "label": "Study Identifier",
      "type": "Char",
      "length": null,
      "core": "Req",
      "role": "Identifier",
      "codelist": null,
      "codelist_codes": [],
      "codelist_href": null,
      "description": "Unique identifier for a study."
    },
    {
      "order": "2",
      "name": "DOMAIN",
      "label": "Domain Abbreviation",
      "type": "Char",
      "length": null,
      "core": "Req",
      "role": "Identifier",
      "codelist": null,
      "codelist_codes": [],
      "codelist_href": null,
      "description": "Two-character abbreviation for the domain."
    },
    {
      "order": "3",
      "name": "USUBJID",
      "label": "Unique Subject Identifier",
      "type": "Char",
      "length": null,
      "core": "Req",
      "role": "Identifier",
      "codelist": null,
      "codelist_codes": [],
      "codelist_href": null,
      "description": "Identifier used to uniquely identify a subject across all studies for all applications or submissions involving the product."
    },
    {
      "order": "4",
      "name": "VSSEQ",
      "label": "Sequence Number",
      "type": "Num",
      "length": null,
      "core": "Req",
      "role": "Identifier",
      "codelist": null,
      "codelist_codes": [],
      "codelist_href": null,
      "description": "Sequence number given to ensure uniqueness of subject records within a domain. May be any valid number."
    },
    {
      "order": "5",
      "name": "VSGRPID",
      "label": "Group ID",
      "type": "Char",
      "length": null,
      "core": "Perm",
      "role": "Identifier",
      "codelist": null,
      "codelist_codes": [],
      "codelist_href": null,
      "description": "Used to tie together a block of related records in a single domain for a subject."
    },
    {
      "order": "6",
      "name": "VSSPID",
      "label": "Sponsor-Defined Identifier",
      "type": "Char",
      "length": null,
      "core": "Perm",
      "role": "Identifier",
      "codelist": null,
      "codelist_codes": [],
      "codelist_href": null,
      "description": "Sponsor-defined reference number. May be preprinted on the CRF as an explicit line identifier or defined in the sponsor's operational database."
    },
    {
      "order": "7",
      "name": "VSTESTCD",
      "label": "Vital Signs Test Short Name",
      "type": "Char",
      "length": null,
      "core": "Req",
      "role": "Topic",
      "codelist": "Version-agnostic anchor resource for codelist C66741",
      "codelist_codes": [
        "C66741"
      ],
      "codelist_href": "/mdr/root/ct/sdtmct/codelists/C66741",
      "description": "Short name of the measurement, test, or examination described in VSTEST. It can be used as a column name when converting a dataset from a vertical to a horizontal format. The value in VSTESTCD cannot be longer than 8 characters, nor can it start with a number (e.g., \"1TEST\" is not valid). VSTESTCD cannot contain characters other than letters, numbers, or underscores. Examples: \"SYSBP\", \"DIABP\", \"BMI\"."
    },
    {
      "order": "8",
      "name": "VSTEST",
      "label": "Vital Signs Test Name",
      "type": "Char",
      "length": null,
      "core": "Req",
      "role": "Synonym Qualifier",
      "codelist": "Version-agnostic anchor resource for codelist C67153",
      "codelist_codes": [
        "C67153"
      ],
      "codelist_href": "/mdr/root/ct/sdtmct/codelists/C67153",
      "description": "Verbatim name of the test or examination used to obtain the measurement or finding. The value in VSTEST cannot be longer than 40 characters. Examples: \"Systolic Blood Pressure\", \"Diastolic Blood Pressure\", \"Body Mass Index\"."
    },
    {
      "order": "9",
      "name": "VSCAT",
      "label": "Category for Vital Signs",
      "type": "Char",
      "length": null,
      "core": "Perm",
      "role": "Grouping Qualifier",
      "codelist": null,
      "codelist_codes": [],
      "codelist_href": null,
      "description": "Used to define a category of related records."
    },
    {
      "order": "10",
      "name": "VSSCAT",
      "label": "Subcategory for Vital Signs",
      "type": "Char",
      "length": null,
      "core": "Perm",
      "role": "Grouping Qualifier",
      "codelist": null,
      "codelist_codes": [],
      "codelist_href": null,
      "description": "A further categorization of a measurement or examination."
    },
    {
      "order": "11",
      "name": "VSPOS",
      "label": "Vital Signs Position of Subject",
      "type": "Char",
      "length": null,
      "core": "Perm",
      "role": "Record Qualifier",
      "codelist": "Version-agnostic anchor resource for codelist C71148",
      "codelist_codes": [
        "C71148"
      ],
      "codelist_href": "/mdr/root/ct/sdtmct/codelists/C71148",
      "description": "Position of the subject during a measurement or examination. Examples: \"SUPINE\", \"STANDING\", \"SITTING\"."
    },
    {
      "order": "12",
      "name": "VSORRES",
      "label": "Result or Finding in Original Units",
      "type": "Char",
      "length": null,
      "core": "Exp",
      "role": "Result Qualifier",
      "codelist": null,
      "codelist_codes": [],
      "codelist_href": null,
      "description": "Result of the vital signs measurement as originally received or collected."
    },
    {
      "order": "13",
      "name": "VSORRESU",
      "label": "Original Units",
      "type": "Char",
      "length": null,
      "core": "Exp",
      "role": "Variable Qualifier",
      "codelist": "Version-agnostic anchor resource for codelist C66770",
      "codelist_codes": [
        "C66770"
      ],
      "codelist_href": "/mdr/root/ct/sdtmct/codelists/C66770",
      "description": "Original units in which the data were collected. The unit for VSORRES. Examples: \"in\", \"LB\", \"beats/min\"."
    },
    {
      "order": "14",
      "name": "VSSTRESC",
      "label": "Character Result/Finding in Std Format",
      "type": "Char",
      "length": null,
      "core": "Exp",
      "role": "Result Qualifier",
      "codelist": null,
      "codelist_codes": [],
      "codelist_href": null,
      "description": "Contains the result value for all findings, copied or derived from VSORRES in a standard format or standard units. VSSTRESC should store all results or findings in character format; if results are numeric, they should also be stored in numeric format in VSSTRESN. For example, if a test has results \"NONE\", \"NEG\", and \"NEGATIVE\" in VSORRES, and these results effectively have the same meaning, they could be represented in standard format in VSSTRESC as \"NEGATIVE\"."
    },
    {
      "order": "15",
      "name": "VSSTRESN",
      "label": "Numeric Result/Finding in Standard Units",
      "type": "Num",
      "length": null,
      "core": "Exp",
      "role": "Result Qualifier",
      "codelist": null,
      "codelist_codes": [],
      "codelist_href": null,
      "description": "Used for continuous or numeric results or findings in standard format; copied in numeric format from VSSTRESC. VSSTRESN should store all numeric test results or findings."
    },
    {
      "order": "16",
      "name": "VSSTRESU",
      "label": "Standard Units",
      "type": "Char",
      "length": null,
      "core": "Exp",
      "role": "Variable Qualifier",
      "codelist": "Version-agnostic anchor resource for codelist C66770",
      "codelist_codes": [
        "C66770"
      ],
      "codelist_href": "/mdr/root/ct/sdtmct/codelists/C66770",
      "description": "Standardized unit used for VSSTRESC and VSSTRESN."
    },
    {
      "order": "17",
      "name": "VSSTAT",
      "label": "Completion Status",
      "type": "Char",
      "length": null,
      "core": "Perm",
      "role": "Record Qualifier",
      "codelist": "Version-agnostic anchor resource for codelist C66789",
      "codelist_codes": [
        "C66789"
      ],
      "codelist_href": "/mdr/root/ct/sdtmct/codelists/C66789",
      "description": "Used to indicate that a vital sign measurement was not done. Should be null if a result exists in VSORRES."
    },
    {
      "order": "18",
      "name": "VSREASND",
      "label": "Reason Not Performed",
      "type": "Char",
      "length": null,
      "core": "Perm",
      "role": "Record Qualifier",
      "codelist": null,
      "codelist_codes": [],
      "codelist_href": null,
      "description": "Describes why a measurement or test was not performed. Examples: \"BROKEN EQUIPMENT\", \"SUBJECT REFUSED\". Used in conjunction with VSSTAT when value is \"NOT DONE\"."
    },
    {
      "order": "19",
      "name": "VSLOC",
      "label": "Location of Vital Signs Measurement",
      "type": "Char",
      "length": null,
      "core": "Perm",
      "role": "Record Qualifier",
      "codelist": "Version-agnostic anchor resource for codelist C74456",
      "codelist_codes": [
        "C74456"
      ],
      "codelist_href": "/mdr/root/ct/sdtmct/codelists/C74456",
      "description": "Location relevant to the collection of vital signs measurement. Example: \"ARM\" for blood pressure."
    },
    {
      "order": "20",
      "name": "VSLAT",
      "label": "Laterality",
      "type": "Char",
      "length": null,
      "core": "Perm",
      "role": "Result Qualifier",
      "codelist": "Version-agnostic anchor resource for codelist C99073",
      "codelist_codes": [
        "C99073"
      ],
      "codelist_href": "/mdr/root/ct/sdtmct/codelists/C99073",
      "description": "Qualifier for anatomical location or specimen further detailing laterality. Examples: \"RIGHT\", \"LEFT\", \"BILATERAL\"."
    },
    {
      "order": "21",
      "name": "VSLOBXFL",
      "label": "Last Observation Before Exposure Flag",
      "type": "Char",
      "length": null,
      "core": "Exp",
      "role": "Record Qualifier",
      "codelist": "Version-agnostic anchor resource for codelist C66742",
      "codelist_codes": [
        "C66742"
      ],
      "codelist_href": "/mdr/root/ct/sdtmct/codelists/C66742",
      "description": "Operationally derived indicator used to identify the last non-missing value prior to RFXSTDTC. Should be \"Y\" or null."
    },
    {
      "order": "22",
      "name": "VSBLFL",
      "label": "Baseline Flag",
      "type": "Char",
      "length": null,
      "core": "Perm",
      "role": "Record Qualifier",
      "codelist": "Version-agnostic anchor resource for codelist C66742",
      "codelist_codes": [
        "C66742"
      ],
      "codelist_href": "/mdr/root/ct/sdtmct/codelists/C66742",
      "description": "Indicator used to identify a baseline value. Should be \"Y\" or null. Note that VSBLFL is retained for backward compatibility. The authoritative baseline for statistical analysis is in an ADaM dataset."
    },
    {
      "order": "23",
      "name": "VSDRVFL",
      "label": "Derived Flag",
      "type": "Char",
      "length": null,
      "core": "Perm",
      "role": "Record Qualifier",
      "codelist": "Version-agnostic anchor resource for codelist C66742",
      "codelist_codes": [
        "C66742"
      ],
      "codelist_href": "/mdr/root/ct/sdtmct/codelists/C66742",
      "description": "Used to indicate a derived record. The value should be \"Y\" or null. Records that represent the average of other records or that do not come from the CRF are examples of records that would be derived for the submission datasets. If VSDRVFL = \"Y,\" then VSORRES may be null, with VSSTRESC and (if numeric) VSSTRESN having the derived value."
    },
    {
      "order": "24",
      "name": "VSTOX",
      "label": "Toxicity",
      "type": "Char",
      "length": null,
      "core": "Perm",
      "role": "Variable Qualifier",
      "codelist": null,
      "codelist_codes": [],
      "codelist_href": null,
      "description": "Description of toxicity quantified by VSTOXGR. The sponsor is expected to provide the name of the scale and version used to map the terms, utilizing the external codelist element in the Define-XML document."
    },
    {
      "order": "25",
      "name": "VSTOXGR",
      "label": "Standard Toxicity Grade",
      "type": "Char",
      "length": null,
      "core": "Perm",
      "role": "Record Qualifier",
      "codelist": null,
      "codelist_codes": [],
      "codelist_href": null,
      "description": "Records toxicity grade value using a standard toxicity scale (e.g., NCI CTCAE). If value is from a numeric scale, represent only the number (e.g., \"2\", not \"Grade 2\"). The sponsor is expected to provide the name of the scale and version used to map the terms, utilizing the external codelist element in the Define-XML document."
    },
    {
      "order": "26",
      "name": "VSCLSIG",
      "label": "Clinically Significant, Collected",
      "type": "Char",
      "length": null,
      "core": "Perm",
      "role": "Record Qualifier",
      "codelist": "Version-agnostic anchor resource for codelist C66742",
      "codelist_codes": [
        "C66742"
      ],
      "codelist_href": "/mdr/root/ct/sdtmct/codelists/C66742",
      "description": "Used to indicate whether a collected observation is clinically significant based on judgment."
    },
    {
      "order": "27",
      "name": "VISITNUM",
      "label": "Visit Number",
      "type": "Num",
      "length": null,
      "core": "Exp",
      "role": "Timing",
      "codelist": null,
      "codelist_codes": [],
      "codelist_href": null,
      "description": "Clinical encounter number. Numeric version of VISIT, used for sorting."
    },
    {
      "order": "28",
      "name": "VISIT",
      "label": "Visit Name",
      "type": "Char",
      "length": null,
      "core": "Perm",
      "role": "Timing",
      "codelist": null,
      "codelist_codes": [],
      "codelist_href": null,
      "description": "Protocol-defined description of clinical encounter. May be used in addition to VISITNUM and/or VISITDY."
    },
    {
      "order": "29",
      "name": "VISITDY",
      "label": "Planned Study Day of Visit",
      "type": "Num",
      "length": null,
      "core": "Perm",
      "role": "Timing",
      "codelist": null,
      "codelist_codes": [],
      "codelist_href": null,
      "description": "Planned study day of the visit based upon RFSTDTC in Demographics."
    },
    {
      "order": "30",
      "name": "TAETORD",
      "label": "Planned Order of Element within Arm",
      "type": "Num",
      "length": null,
      "core": "Perm",
      "role": "Timing",
      "codelist": null,
      "codelist_codes": [],
      "codelist_href": null,
      "description": "Number that gives the planned order of the element within the arm."
    },
    {
      "order": "31",
      "name": "EPOCH",
      "label": "Epoch",
      "type": "Char",
      "length": null,
      "core": "Perm",
      "role": "Timing",
      "codelist": "Version-agnostic anchor resource for codelist C99079",
      "codelist_codes": [
        "C99079"
      ],
      "codelist_href": "/mdr/root/ct/sdtmct/codelists/C99079",
      "description": "Epoch associated with the start date/time at which the assessment was made."
    },
    {
      "order": "32",
      "name": "VSDTC",
      "label": "Date/Time of Measurements",
      "type": "Char",
      "length": null,
      "core": "Exp",
      "role": "Timing",
      "codelist": null,
      "codelist_codes": [],
      "codelist_href": null,
      "description": "Date and time of the vital signs assessment represented in ISO 8601 character format."
    },
    {
      "order": "33",
      "name": "VSDY",
      "label": "Study Day of Vital Signs",
      "type": "Num",
      "length": null,
      "core": "Perm",
      "role": "Timing",
      "codelist": null,
      "codelist_codes": [],
      "codelist_href": null,
      "description": "Study day of vital signs measurements, measured as integer days. Algorithm for calculations must be relative to the sponsor-defined RFSTDTC variable in Demographics."
    },
    {
      "order": "34",
      "name": "VSTPT",
      "label": "Planned Time Point Name",
      "type": "Char",
      "length": null,
      "core": "Perm",
      "role": "Timing",
      "codelist": null,
      "codelist_codes": [],
      "codelist_href": null,
      "description": "Text description of time when measurement should be taken. This may be represented as an elapsed time relative to a fixed reference point (e.g., time of last dose). See VSTPTNUM and VSTPTREF. Examples: \"START\", \"5 MIN POST\"."
    },
    {
      "order": "35",
      "name": "VSTPTNUM",
      "label": "Planned Time Point Number",
      "type": "Num",
      "length": null,
      "core": "Perm",
      "role": "Timing",
      "codelist": null,
      "codelist_codes": [],
      "codelist_href": null,
      "description": "Numerical version of VSTPT to aid in sorting."
    },
    {
      "order": "36",
      "name": "VSELTM",
      "label": "Planned Elapsed Time from Time Point Ref",
      "type": "Char",
      "length": null,
      "core": "Perm",
      "role": "Timing",
      "codelist": null,
      "codelist_codes": [],
      "codelist_href": null,
      "description": "Planned elapsed time (in ISO 8601) relative to a planned fixed reference (VSTPTREF). This variable is useful where there are repetitive measures. Not a clock time or a date time variable. Represented as an ISO 8601 Duration. Examples: \"-PT15M\" to represent the period of 15 minutes prior to the reference point indicated by VSTPTREF, \"PT8H\" to represent the period of 8 hours after the reference point indicated by VSTPTREF."
    },
    {
      "order": "37",
      "name": "VSTPTREF",
      "label": "Time Point Reference",
      "type": "Char",
      "length": null,
      "core": "Perm",
      "role": "Timing",
      "codelist": null,
      "codelist_codes": [],
      "codelist_href": null,
      "description": "Name of the fixed reference point referred to by VSELTM, VSTPTNUM, and VSTPT. Examples: \"PREVIOUS DOSE\", \"PREVIOUS MEAL\"."
    },
    {
      "order": "38",
      "name": "VSRFTDTC",
      "label": "Date/Time of Reference Time Point",
      "type": "Char",
      "length": null,
      "core": "Perm",
      "role": "Timing",
      "codelist": null,
      "codelist_codes": [],
      "codelist_href": null,
      "description": "Date/time of the reference time point, VSTPTREF."
    }
  ],
  "variable_summary": {
    "required": 6,
    "expected": 8,
    "permissible": 24
  },
  "codelist_codes_used": [
    "C66741",
    "C66742",
    "C66770",
    "C66789",
    "C67153",
    "C71148",
    "C74456",
    "C99073",
    "C99079"
  ],
  "fetched_at": "2025-12-27T00:21:07.914108"
}