{
  "domain": "BS",
  "label": "Biospecimen Findings",
  "class": "Findings",
  "class_href": "/mdr/sdtmig/3-4/classes/Findings",
  "ig_version": "3-4",
  "total_variables": 35,
  "variables": [
    {
      "order": "1",
      "name": "STUDYID",
      "label": "Study Identifier",
      "type": "Char",
      "length": null,
      "core": "Req",
      "role": "Identifier",
      "codelist": null,
      "codelist_codes": [],
      "codelist_href": null,
      "description": "Unique identifier for a study."
    },
    {
      "order": "2",
      "name": "DOMAIN",
      "label": "Domain Abbreviation",
      "type": "Char",
      "length": null,
      "core": "Req",
      "role": "Identifier",
      "codelist": null,
      "codelist_codes": [],
      "codelist_href": null,
      "description": "Two-character abbreviation for the domain."
    },
    {
      "order": "3",
      "name": "USUBJID",
      "label": "Unique Subject Identifier",
      "type": "Char",
      "length": null,
      "core": "Req",
      "role": "Identifier",
      "codelist": null,
      "codelist_codes": [],
      "codelist_href": null,
      "description": "Identifier used to uniquely identify a subject across all studies for all applications or submissions involving the product."
    },
    {
      "order": "4",
      "name": "SPDEVID",
      "label": "Sponsor Device Identifier",
      "type": "Char",
      "length": null,
      "core": "Perm",
      "role": "Identifier",
      "codelist": null,
      "codelist_codes": [],
      "codelist_href": null,
      "description": "Sponsor-defined identifier for a device."
    },
    {
      "order": "5",
      "name": "BSSEQ",
      "label": "Sequence Number",
      "type": "Num",
      "length": null,
      "core": "Req",
      "role": "Identifier",
      "codelist": null,
      "codelist_codes": [],
      "codelist_href": null,
      "description": "Sequence number given to ensure uniqueness within a dataset for a subject. May be any valid number (including decimals) and does not have to start at 1."
    },
    {
      "order": "6",
      "name": "BSGRPID",
      "label": "Group ID",
      "type": "Char",
      "length": null,
      "core": "Perm",
      "role": "Identifier",
      "codelist": null,
      "codelist_codes": [],
      "codelist_href": null,
      "description": "Optional group identifier, used to link together a block of related records within a subject in a domain."
    },
    {
      "order": "7",
      "name": "BSREFID",
      "label": "Reference ID",
      "type": "Char",
      "length": null,
      "core": "Exp",
      "role": "Identifier",
      "codelist": null,
      "codelist_codes": [],
      "codelist_href": null,
      "description": "Internal or external identifier such as lab specimen ID."
    },
    {
      "order": "8",
      "name": "BSSPID",
      "label": "Sponsor-Defined Identifier",
      "type": "Char",
      "length": null,
      "core": "Perm",
      "role": "Identifier",
      "codelist": null,
      "codelist_codes": [],
      "codelist_href": null,
      "description": "Sponsor-defined identifier."
    },
    {
      "order": "9",
      "name": "BSTESTCD",
      "label": "Biospecimen Test Short Name",
      "type": "Char",
      "length": null,
      "core": "Req",
      "role": "Topic",
      "codelist": "Version-agnostic anchor resource for codelist C124300",
      "codelist_codes": [
        "C124300"
      ],
      "codelist_href": "/mdr/root/ct/sdtmct/codelists/C124300",
      "description": "Short character value for BSTEST used as a column name when converting a dataset from a vertical format to a horizontal format. The short value can be up to 8 characters. Examples: VOLUME, RIN."
    },
    {
      "order": "10",
      "name": "BSTEST",
      "label": "Biospecimen Test Name",
      "type": "Char",
      "length": null,
      "core": "Req",
      "role": "Synonym Qualifier",
      "codelist": "Version-agnostic anchor resource for codelist C124299",
      "codelist_codes": [
        "C124299"
      ],
      "codelist_href": "/mdr/root/ct/sdtmct/codelists/C124299",
      "description": "Long name for BSTESTCD. Examples: Volume, RNA Integrity Number."
    },
    {
      "order": "11",
      "name": "BSCAT",
      "label": "Category for Biospecimen Test",
      "type": "Char",
      "length": null,
      "core": "Exp",
      "role": "Grouping Qualifier",
      "codelist": null,
      "codelist_codes": [],
      "codelist_href": null,
      "description": "Used to define a category of topic-variable values. Example: MEASUREMENT, QUALITY."
    },
    {
      "order": "12",
      "name": "BSSCAT",
      "label": "Subcategory for Biospecimen Test",
      "type": "Char",
      "length": null,
      "core": "Perm",
      "role": "Grouping Qualifier",
      "codelist": null,
      "codelist_codes": [],
      "codelist_href": null,
      "description": "Used to define a further categorization of BSCAT values."
    },
    {
      "order": "13",
      "name": "BSORRES",
      "label": "Result or Finding in Original Units",
      "type": "Char",
      "length": null,
      "core": "Exp",
      "role": "Result Qualifier",
      "codelist": null,
      "codelist_codes": [],
      "codelist_href": null,
      "description": "Result of the measurement or finding as originally received or collected."
    },
    {
      "order": "14",
      "name": "BSORRESU",
      "label": "Original Units",
      "type": "Char",
      "length": null,
      "core": "Exp",
      "role": "Variable Qualifier",
      "codelist": "Version-agnostic anchor resource for codelist C71620",
      "codelist_codes": [
        "C71620"
      ],
      "codelist_href": "/mdr/root/ct/sdtmct/codelists/C71620",
      "description": "Unit for BSORRES. Examples: mg, mL."
    },
    {
      "order": "15",
      "name": "BSSTRESC",
      "label": "Character Result/Finding in Std Format",
      "type": "Char",
      "length": null,
      "core": "Exp",
      "role": "Result Qualifier",
      "codelist": null,
      "codelist_codes": [],
      "codelist_href": null,
      "description": "Contains the result value for all findings, copied or derived from BSORRES in a standard format or standard units. BSSTRESC should store all results or findings in character format; if results are numeric, they should also be stored in numeric format in BSSTRESN."
    },
    {
      "order": "16",
      "name": "BSSTRESN",
      "label": "Numeric Result/Finding in Standard Units",
      "type": "Num",
      "length": null,
      "core": "Exp",
      "role": "Result Qualifier",
      "codelist": null,
      "codelist_codes": [],
      "codelist_href": null,
      "description": "Used for continuous or numeric results or findings in standard format; copied in numeric format from BSSTRESC. BSSTRESN should store all numeric test results or findings."
    },
    {
      "order": "17",
      "name": "BSSTRESU",
      "label": "Standard Units",
      "type": "Char",
      "length": null,
      "core": "Exp",
      "role": "Variable Qualifier",
      "codelist": "Version-agnostic anchor resource for codelist C71620",
      "codelist_codes": [
        "C71620"
      ],
      "codelist_href": "/mdr/root/ct/sdtmct/codelists/C71620",
      "description": "Standardized unit used for BSSTRESC and BSSTRESN."
    },
    {
      "order": "18",
      "name": "BSSTAT",
      "label": "Completion Status",
      "type": "Char",
      "length": null,
      "core": "Perm",
      "role": "Record Qualifier",
      "codelist": "Version-agnostic anchor resource for codelist C66789",
      "codelist_codes": [
        "C66789"
      ],
      "codelist_href": "/mdr/root/ct/sdtmct/codelists/C66789",
      "description": "Used to indicate that a test was not done, or was attempted but did not generate a result. Should be null or have a value of NOT DONE."
    },
    {
      "order": "19",
      "name": "BSREASND",
      "label": "Reason Test Not Done",
      "type": "Char",
      "length": null,
      "core": "Perm",
      "role": "Record Qualifier",
      "codelist": null,
      "codelist_codes": [],
      "codelist_href": null,
      "description": "Reason not done. Used in conjunction with BSSTAT when value is NOT DONE."
    },
    {
      "order": "20",
      "name": "BSNAM",
      "label": "Vendor Name",
      "type": "Char",
      "length": null,
      "core": "Perm",
      "role": "Record Qualifier",
      "codelist": null,
      "codelist_codes": [],
      "codelist_href": null,
      "description": "Name or identifier of the vendor (e.g., laboratory) that provided the test results."
    },
    {
      "order": "21",
      "name": "BSSPEC",
      "label": "Specimen Type",
      "type": "Char",
      "length": null,
      "core": "Perm",
      "role": "Record Qualifier",
      "codelist": "Version-agnostic anchor resource for codelist C78734, Version-agnostic anchor resource for codelist C111114",
      "codelist_codes": [
        "C78734",
        "C111114"
      ],
      "codelist_href": "/mdr/root/ct/sdtmct/codelists/C78734",
      "description": "Defines the type of specimen used for a measurement. Examples: SERUM, PLASMA, URINE, SOFT TISSUE."
    },
    {
      "order": "22",
      "name": "BSANTREG",
      "label": "Anatomical Region of Specimen",
      "type": "Char",
      "length": null,
      "core": "Perm",
      "role": "Variable Qualifier",
      "codelist": null,
      "codelist_codes": [],
      "codelist_href": null,
      "description": "Defines the specific anatomical or biological region of a tissue, organ specimen or the region from which the specimen is obtained, as defined in the protocol, such as a section or part of what is described in the BSSPEC variable. Examples: CORTEX, MEDULLA, MUCOSA."
    },
    {
      "order": "23",
      "name": "BSSPCCND",
      "label": "Specimen Condition",
      "type": "Char",
      "length": null,
      "core": "Perm",
      "role": "Record Qualifier",
      "codelist": "Version-agnostic anchor resource for codelist C78733",
      "codelist_codes": [
        "C78733"
      ],
      "codelist_href": "/mdr/root/ct/sdtmct/codelists/C78733",
      "description": "Defines the condition of the specimen. Examples: HEMOLYZED, ICTERIC, LIPEMIC."
    },
    {
      "order": "24",
      "name": "BSMETHOD",
      "label": "Method of Test or Examination",
      "type": "Char",
      "length": null,
      "core": "Perm",
      "role": "Record Qualifier",
      "codelist": "Version-agnostic anchor resource for codelist C85492",
      "codelist_codes": [
        "C85492"
      ],
      "codelist_href": "/mdr/root/ct/sdtmct/codelists/C85492",
      "description": "Method of the test or examination. Examples: SPECTROPHOTOMETRY, ELECTROPHORESIS."
    },
    {
      "order": "25",
      "name": "BSBLFL",
      "label": "Baseline Flag",
      "type": "Char",
      "length": null,
      "core": "Perm",
      "role": "Record Qualifier",
      "codelist": "Version-agnostic anchor resource for codelist C66742",
      "codelist_codes": [
        "C66742"
      ],
      "codelist_href": "/mdr/root/ct/sdtmct/codelists/C66742",
      "description": "Indicator used to identify a baseline value."
    },
    {
      "order": "26",
      "name": "VISITNUM",
      "label": "Visit Number",
      "type": "Num",
      "length": null,
      "core": "Exp",
      "role": "Timing",
      "codelist": null,
      "codelist_codes": [],
      "codelist_href": null,
      "description": "Clinical encounter number. Numeric version of VISIT, used for sorting."
    },
    {
      "order": "27",
      "name": "VISIT",
      "label": "Visit Name",
      "type": "Char",
      "length": null,
      "core": "Perm",
      "role": "Timing",
      "codelist": null,
      "codelist_codes": [],
      "codelist_href": null,
      "description": "Protocol-defined description of clinical encounter."
    },
    {
      "order": "28",
      "name": "VISITDY",
      "label": "Planned Study Day of Visit",
      "type": "Num",
      "length": null,
      "core": "Perm",
      "role": "Timing",
      "codelist": null,
      "codelist_codes": [],
      "codelist_href": null,
      "description": "Planned study day of VISIT. Should be an integer."
    },
    {
      "order": "29",
      "name": "BSDTC",
      "label": "Date/Time of Specimen Collection",
      "type": "Char",
      "length": null,
      "core": "Exp",
      "role": "Timing",
      "codelist": null,
      "codelist_codes": [],
      "codelist_href": null,
      "description": "Date and time of specimen collection."
    },
    {
      "order": "30",
      "name": "BSDY",
      "label": "Study Day of Specimen Collection",
      "type": "Num",
      "length": null,
      "core": "Perm",
      "role": "Timing",
      "codelist": null,
      "codelist_codes": [],
      "codelist_href": null,
      "description": "Study day of specimen collection relative to the sponsor-defined RFSTDTC."
    },
    {
      "order": "31",
      "name": "BSTPT",
      "label": "Planned Time Point Name",
      "type": "Char",
      "length": null,
      "core": "Perm",
      "role": "Timing",
      "codelist": null,
      "codelist_codes": [],
      "codelist_href": null,
      "description": "Text description of time when a measurement or observation should be taken as defined in the protocol. This may be represented as an elapsed time relative to a fixed reference point, such as time of last dose. See BSTPTNUM and BSTPTREF."
    },
    {
      "order": "32",
      "name": "BSTPTNUM",
      "label": "Planned Time Point Number",
      "type": "Num",
      "length": null,
      "core": "Perm",
      "role": "Timing",
      "codelist": null,
      "codelist_codes": [],
      "codelist_href": null,
      "description": "Numerical version of BSTPT used in sorting."
    },
    {
      "order": "33",
      "name": "BSELTM",
      "label": "Planned Elapsed Time from Time Point Ref",
      "type": "Char",
      "length": null,
      "core": "Perm",
      "role": "Timing",
      "codelist": null,
      "codelist_codes": [],
      "codelist_href": null,
      "description": "Elapsed time relative to a planned fixed reference (BSTPTREF). This variable is useful where there are repetitive measures. Not a clock time or a date time variable, but an interval, represented as ISO duration."
    },
    {
      "order": "34",
      "name": "BSTPTREF",
      "label": "Time Point Reference",
      "type": "Char",
      "length": null,
      "core": "Perm",
      "role": "Timing",
      "codelist": null,
      "codelist_codes": [],
      "codelist_href": null,
      "description": "Name of the fixed reference point referred to by BSELTM, BSTPTNUM, and BSTPT. Examples: PREVIOUS DOSE, PREVIOUS MEAL."
    },
    {
      "order": "35",
      "name": "BSRFTDTC",
      "label": "Date/Time of Reference Time Point",
      "type": "Char",
      "length": null,
      "core": "Perm",
      "role": "Timing",
      "codelist": null,
      "codelist_codes": [],
      "codelist_href": null,
      "description": "Date/time for a fixed reference time point defined by BSTPTREF."
    }
  ],
  "variable_summary": {
    "required": 6,
    "expected": 9,
    "permissible": 20
  },
  "codelist_codes_used": [
    "C124299",
    "C124300",
    "C66742",
    "C66789",
    "C71620",
    "C78733",
    "C78734",
    "C85492"
  ],
  "fetched_at": "2025-12-26T22:37:21.500061"
}