{
  "domain": "EX",
  "label": "Exposure",
  "class": "Interventions",
  "class_href": "/mdr/sdtmig/3-4/classes/Interventions",
  "ig_version": "3-4",
  "total_variables": 37,
  "variables": [
    {
      "order": "1",
      "name": "STUDYID",
      "label": "Study Identifier",
      "type": "Char",
      "length": null,
      "core": "Req",
      "role": "Identifier",
      "codelist": null,
      "codelist_codes": [],
      "codelist_href": null,
      "description": "Unique identifier for a study."
    },
    {
      "order": "2",
      "name": "DOMAIN",
      "label": "Domain Abbreviation",
      "type": "Char",
      "length": null,
      "core": "Req",
      "role": "Identifier",
      "codelist": null,
      "codelist_codes": [],
      "codelist_href": null,
      "description": "Two-character abbreviation for the domain."
    },
    {
      "order": "3",
      "name": "USUBJID",
      "label": "Unique Subject Identifier",
      "type": "Char",
      "length": null,
      "core": "Req",
      "role": "Identifier",
      "codelist": null,
      "codelist_codes": [],
      "codelist_href": null,
      "description": "Identifier used to uniquely identify a subject across all studies for all applications or submissions involving the product."
    },
    {
      "order": "4",
      "name": "EXSEQ",
      "label": "Sequence Number",
      "type": "Num",
      "length": null,
      "core": "Req",
      "role": "Identifier",
      "codelist": null,
      "codelist_codes": [],
      "codelist_href": null,
      "description": "Sequence number given to ensure uniqueness of subject records within a domain. May be any valid number."
    },
    {
      "order": "5",
      "name": "EXGRPID",
      "label": "Group ID",
      "type": "Char",
      "length": null,
      "core": "Perm",
      "role": "Identifier",
      "codelist": null,
      "codelist_codes": [],
      "codelist_href": null,
      "description": "Used to tie together a block of related records in a single domain for a subject."
    },
    {
      "order": "6",
      "name": "EXREFID",
      "label": "Reference ID",
      "type": "Char",
      "length": null,
      "core": "Perm",
      "role": "Identifier",
      "codelist": null,
      "codelist_codes": [],
      "codelist_href": null,
      "description": "Internal or external identifier (e.g., kit number, bottle label, vial identifier)."
    },
    {
      "order": "7",
      "name": "EXSPID",
      "label": "Sponsor-Defined Identifier",
      "type": "Char",
      "length": null,
      "core": "Perm",
      "role": "Identifier",
      "codelist": null,
      "codelist_codes": [],
      "codelist_href": null,
      "description": "Sponsor-defined reference number. May be preprinted on the CRF as an explicit line identifier or defined in the sponsor's operational database. Example: Line number on a CRF page."
    },
    {
      "order": "8",
      "name": "EXLNKID",
      "label": "Link ID",
      "type": "Char",
      "length": null,
      "core": "Perm",
      "role": "Identifier",
      "codelist": null,
      "codelist_codes": [],
      "codelist_href": null,
      "description": "Identifier used to link related records across domains."
    },
    {
      "order": "9",
      "name": "EXLNKGRP",
      "label": "Link Group ID",
      "type": "Char",
      "length": null,
      "core": "Perm",
      "role": "Identifier",
      "codelist": null,
      "codelist_codes": [],
      "codelist_href": null,
      "description": "Identifier used to link related, grouped records across domains."
    },
    {
      "order": "10",
      "name": "EXTRT",
      "label": "Name of Treatment",
      "type": "Char",
      "length": null,
      "core": "Req",
      "role": "Topic",
      "codelist": null,
      "codelist_codes": [],
      "codelist_href": null,
      "description": "Name of the protocol-specified study treatment given during the dosing period for the observation."
    },
    {
      "order": "11",
      "name": "EXCAT",
      "label": "Category of Treatment",
      "type": "Char",
      "length": null,
      "core": "Perm",
      "role": "Grouping Qualifier",
      "codelist": null,
      "codelist_codes": [],
      "codelist_href": null,
      "description": "Used to define a category of EXTRT values."
    },
    {
      "order": "12",
      "name": "EXSCAT",
      "label": "Subcategory of Treatment",
      "type": "Char",
      "length": null,
      "core": "Perm",
      "role": "Grouping Qualifier",
      "codelist": null,
      "codelist_codes": [],
      "codelist_href": null,
      "description": "A further categorization of EXCAT values."
    },
    {
      "order": "13",
      "name": "EXDOSE",
      "label": "Dose",
      "type": "Num",
      "length": null,
      "core": "Exp",
      "role": "Record Qualifier",
      "codelist": null,
      "codelist_codes": [],
      "codelist_href": null,
      "description": "Amount of EXTRT when numeric. Not populated when EXDOSTXT is populated."
    },
    {
      "order": "14",
      "name": "EXDOSTXT",
      "label": "Dose Description",
      "type": "Char",
      "length": null,
      "core": "Perm",
      "role": "Record Qualifier",
      "codelist": null,
      "codelist_codes": [],
      "codelist_href": null,
      "description": "Amount of EXTRT when non-numeric. Dosing amounts or a range of dosing information collected in text form. Example: \"200-400\". Not populated when EXDOSE is populated."
    },
    {
      "order": "15",
      "name": "EXDOSU",
      "label": "Dose Units",
      "type": "Char",
      "length": null,
      "core": "Exp",
      "role": "Variable Qualifier",
      "codelist": "Version-agnostic anchor resource for codelist C71620",
      "codelist_codes": [
        "C71620"
      ],
      "codelist_href": "/mdr/root/ct/sdtmct/codelists/C71620",
      "description": "Units for EXDOSE, EXDOSTOT, or EXDOSTXT representing protocol-specified values. Examples: \"ng\", \"mg\", \"mg/kg\", \"mg/m2\"."
    },
    {
      "order": "16",
      "name": "EXDOSFRM",
      "label": "Dose Form",
      "type": "Char",
      "length": null,
      "core": "Exp",
      "role": "Variable Qualifier",
      "codelist": "Version-agnostic anchor resource for codelist C66726",
      "codelist_codes": [
        "C66726"
      ],
      "codelist_href": "/mdr/root/ct/sdtmct/codelists/C66726",
      "description": "Dose form for EXTRT. Examples: \"TABLET\", \"LOTION\"."
    },
    {
      "order": "17",
      "name": "EXDOSFRQ",
      "label": "Dosing Frequency per Interval",
      "type": "Char",
      "length": null,
      "core": "Perm",
      "role": "Record Qualifier",
      "codelist": "Version-agnostic anchor resource for codelist C71113",
      "codelist_codes": [
        "C71113"
      ],
      "codelist_href": "/mdr/root/ct/sdtmct/codelists/C71113",
      "description": "Usually expressed as the number of repeated administrations of EXDOSE within a specific time period. Examples: \"Q2H\", \"QD\", \"BID\"."
    },
    {
      "order": "18",
      "name": "EXDOSRGM",
      "label": "Intended Dose Regimen",
      "type": "Char",
      "length": null,
      "core": "Perm",
      "role": "Record Qualifier",
      "codelist": null,
      "codelist_codes": [],
      "codelist_href": null,
      "description": "Text description of the intended schedule or regimen for the Intervention. Example: \"TWO WEEKS ON, TWO WEEKS OFF\"."
    },
    {
      "order": "19",
      "name": "EXROUTE",
      "label": "Route of Administration",
      "type": "Char",
      "length": null,
      "core": "Perm",
      "role": "Variable Qualifier",
      "codelist": "Version-agnostic anchor resource for codelist C66729",
      "codelist_codes": [
        "C66729"
      ],
      "codelist_href": "/mdr/root/ct/sdtmct/codelists/C66729",
      "description": "Route of administration for the intervention. Examples: \"ORAL\", \"INTRAVENOUS\"."
    },
    {
      "order": "20",
      "name": "EXLOT",
      "label": "Lot Number",
      "type": "Char",
      "length": null,
      "core": "Perm",
      "role": "Record Qualifier",
      "codelist": null,
      "codelist_codes": [],
      "codelist_href": null,
      "description": "Lot number of the intervention product."
    },
    {
      "order": "21",
      "name": "EXLOC",
      "label": "Location of Dose Administration",
      "type": "Char",
      "length": null,
      "core": "Perm",
      "role": "Record Qualifier",
      "codelist": "Version-agnostic anchor resource for codelist C74456",
      "codelist_codes": [
        "C74456"
      ],
      "codelist_href": "/mdr/root/ct/sdtmct/codelists/C74456",
      "description": "Specifies location of administration. Examples: \"ARM\", \"LIP\"."
    },
    {
      "order": "22",
      "name": "EXLAT",
      "label": "Laterality",
      "type": "Char",
      "length": null,
      "core": "Perm",
      "role": "Variable Qualifier",
      "codelist": "Version-agnostic anchor resource for codelist C99073",
      "codelist_codes": [
        "C99073"
      ],
      "codelist_href": "/mdr/root/ct/sdtmct/codelists/C99073",
      "description": "Qualifier for anatomical location further detailing laterality of the intervention administration. Examples: \"LEFT\", \"RIGHT\"."
    },
    {
      "order": "23",
      "name": "EXDIR",
      "label": "Directionality",
      "type": "Char",
      "length": null,
      "core": "Perm",
      "role": "Variable Qualifier",
      "codelist": "Version-agnostic anchor resource for codelist C99074",
      "codelist_codes": [
        "C99074"
      ],
      "codelist_href": "/mdr/root/ct/sdtmct/codelists/C99074",
      "description": "Qualifier for anatomical location further detailing directionality. Examples: \"ANTERIOR\", \"LOWER\", \"PROXIMAL\", \"UPPER\"."
    },
    {
      "order": "24",
      "name": "EXFAST",
      "label": "Fasting Status",
      "type": "Char",
      "length": null,
      "core": "Perm",
      "role": "Record Qualifier",
      "codelist": "Version-agnostic anchor resource for codelist C66742",
      "codelist_codes": [
        "C66742"
      ],
      "codelist_href": "/mdr/root/ct/sdtmct/codelists/C66742",
      "description": "Indicator used to identify fasting status. Examples: \"Y\", \"N\"."
    },
    {
      "order": "25",
      "name": "EXADJ",
      "label": "Reason for Dose Adjustment",
      "type": "Char",
      "length": null,
      "core": "Perm",
      "role": "Record Qualifier",
      "codelist": null,
      "codelist_codes": [],
      "codelist_href": null,
      "description": "Describes reason or explanation of why a dose is adjusted."
    },
    {
      "order": "26",
      "name": "TAETORD",
      "label": "Planned Order of Element within Arm",
      "type": "Num",
      "length": null,
      "core": "Perm",
      "role": "Timing",
      "codelist": null,
      "codelist_codes": [],
      "codelist_href": null,
      "description": "Number that gives the planned order of the element within the arm."
    },
    {
      "order": "27",
      "name": "EPOCH",
      "label": "Epoch",
      "type": "Char",
      "length": null,
      "core": "Perm",
      "role": "Timing",
      "codelist": "Version-agnostic anchor resource for codelist C99079",
      "codelist_codes": [
        "C99079"
      ],
      "codelist_href": "/mdr/root/ct/sdtmct/codelists/C99079",
      "description": "Trial epoch of the exposure record. Examples: \"RUN-IN\", \"TREATMENT\"."
    },
    {
      "order": "28",
      "name": "EXSTDTC",
      "label": "Start Date/Time of Treatment",
      "type": "Char",
      "length": null,
      "core": "Exp",
      "role": "Timing",
      "codelist": null,
      "codelist_codes": [],
      "codelist_href": null,
      "description": "The date/time when administration of the treatment indicated by EXTRT and EXDOSE began."
    },
    {
      "order": "29",
      "name": "EXENDTC",
      "label": "End Date/Time of Treatment",
      "type": "Char",
      "length": null,
      "core": "Exp",
      "role": "Timing",
      "codelist": null,
      "codelist_codes": [],
      "codelist_href": null,
      "description": "The date/time when administration of the treatment indicated by EXTRT and EXDOSE ended. For administrations considered given at a point in time (e.g., oral tablet, pre-filled syringe injection), where only an administration date/time is collected, EXSTDTC should be copied to EXENDTC as the standard representation."
    },
    {
      "order": "30",
      "name": "EXSTDY",
      "label": "Study Day of Start of Treatment",
      "type": "Num",
      "length": null,
      "core": "Perm",
      "role": "Timing",
      "codelist": null,
      "codelist_codes": [],
      "codelist_href": null,
      "description": "Study day of EXSTDTC relative to DM.RFSTDTC."
    },
    {
      "order": "31",
      "name": "EXENDY",
      "label": "Study Day of End of Treatment",
      "type": "Num",
      "length": null,
      "core": "Perm",
      "role": "Timing",
      "codelist": null,
      "codelist_codes": [],
      "codelist_href": null,
      "description": "Study day of EXENDTC relative to DM.RFSTDTC."
    },
    {
      "order": "32",
      "name": "EXDUR",
      "label": "Duration of Treatment",
      "type": "Char",
      "length": null,
      "core": "Perm",
      "role": "Timing",
      "codelist": null,
      "codelist_codes": [],
      "codelist_href": null,
      "description": "Collected duration of administration. Used only if collected on the CRF and not derived from start and end date/times."
    },
    {
      "order": "33",
      "name": "EXTPT",
      "label": "Planned Time Point Name",
      "type": "Char",
      "length": null,
      "core": "Perm",
      "role": "Timing",
      "codelist": null,
      "codelist_codes": [],
      "codelist_href": null,
      "description": "Text description of time when administration should occur. This may be represented as an elapsed time relative to a fixed reference point, such as time of last dose. See EXTPTNUM and EXTPTREF."
    },
    {
      "order": "34",
      "name": "EXTPTNUM",
      "label": "Planned Time Point Number",
      "type": "Num",
      "length": null,
      "core": "Perm",
      "role": "Timing",
      "codelist": null,
      "codelist_codes": [],
      "codelist_href": null,
      "description": "Numerical version of EXTPT to aid in sorting."
    },
    {
      "order": "35",
      "name": "EXELTM",
      "label": "Planned Elapsed Time from Time Point Ref",
      "type": "Char",
      "length": null,
      "core": "Perm",
      "role": "Timing",
      "codelist": null,
      "codelist_codes": [],
      "codelist_href": null,
      "description": "Planned elapsed time relative to the planned fixed reference (EXTPTREF). This variable is useful where there are repetitive measures. Not a clock time."
    },
    {
      "order": "36",
      "name": "EXTPTREF",
      "label": "Time Point Reference",
      "type": "Char",
      "length": null,
      "core": "Perm",
      "role": "Timing",
      "codelist": null,
      "codelist_codes": [],
      "codelist_href": null,
      "description": "Name of the fixed reference point referred to by EXELTM, EXTPTNUM, and EXTPT. Examples: PREVIOUS DOSE, PREVIOUS MEAL."
    },
    {
      "order": "37",
      "name": "EXRFTDTC",
      "label": "Date/Time of Reference Time Point",
      "type": "Char",
      "length": null,
      "core": "Perm",
      "role": "Timing",
      "codelist": null,
      "codelist_codes": [],
      "codelist_href": null,
      "description": "Date/time for a fixed reference time point defined by EXTPTREF."
    }
  ],
  "variable_summary": {
    "required": 5,
    "expected": 5,
    "permissible": 27
  },
  "codelist_codes_used": [
    "C66726",
    "C66729",
    "C66742",
    "C71113",
    "C71620",
    "C74456",
    "C99073",
    "C99074",
    "C99079"
  ],
  "fetched_at": "2025-12-26T23:02:59.745266"
}