{
  "domain": "BE",
  "label": "Biospecimen Events",
  "class": "Events",
  "class_href": "/mdr/sdtmig/3-4/classes/Events",
  "ig_version": "3-4",
  "total_variables": 25,
  "variables": [
    {
      "order": "1",
      "name": "STUDYID",
      "label": "Study Identifier",
      "type": "Char",
      "length": null,
      "core": "Req",
      "role": "Identifier",
      "codelist": null,
      "codelist_codes": [],
      "codelist_href": null,
      "description": "Unique identifier for a study."
    },
    {
      "order": "2",
      "name": "DOMAIN",
      "label": "Domain Abbreviation",
      "type": "Char",
      "length": null,
      "core": "Req",
      "role": "Identifier",
      "codelist": null,
      "codelist_codes": [],
      "codelist_href": null,
      "description": "Two-character abbreviation for the domain."
    },
    {
      "order": "3",
      "name": "USUBJID",
      "label": "Unique Subject Identifier",
      "type": "Char",
      "length": null,
      "core": "Req",
      "role": "Identifier",
      "codelist": null,
      "codelist_codes": [],
      "codelist_href": null,
      "description": "Identifier used to uniquely identify a subject across all studies for all applications or submissions involving the product."
    },
    {
      "order": "4",
      "name": "SPDEVID",
      "label": "Sponsor Device Identifier",
      "type": "Char",
      "length": null,
      "core": "Perm",
      "role": "Identifier",
      "codelist": null,
      "codelist_codes": [],
      "codelist_href": null,
      "description": "Sponsor-defined identifier for a device."
    },
    {
      "order": "5",
      "name": "BESEQ",
      "label": "Sequence Number",
      "type": "Num",
      "length": null,
      "core": "Req",
      "role": "Identifier",
      "codelist": null,
      "codelist_codes": [],
      "codelist_href": null,
      "description": "Sequence number to ensure uniqueness of records within a dataset for a subject. May be any valid number (including decimals) and does not have to start at 1."
    },
    {
      "order": "6",
      "name": "BEGRPID",
      "label": "Group ID",
      "type": "Char",
      "length": null,
      "core": "Perm",
      "role": "Identifier",
      "codelist": null,
      "codelist_codes": [],
      "codelist_href": null,
      "description": "Optional group identifier, used to link together a block of related records within a subject in a domain."
    },
    {
      "order": "7",
      "name": "BEREFID",
      "label": "Reference ID",
      "type": "Char",
      "length": null,
      "core": "Exp",
      "role": "Identifier",
      "codelist": null,
      "codelist_codes": [],
      "codelist_href": null,
      "description": "Internal or external identifier for the specimen affected or created by the event."
    },
    {
      "order": "8",
      "name": "BESPID",
      "label": "Sponsor-Defined Identifier",
      "type": "Char",
      "length": null,
      "core": "Perm",
      "role": "Identifier",
      "codelist": null,
      "codelist_codes": [],
      "codelist_href": null,
      "description": "Optional sponsor-defined reference number. Example: Line number on a CRF page."
    },
    {
      "order": "9",
      "name": "BETERM",
      "label": "Reported Term for the Biospecimen Event",
      "type": "Char",
      "length": null,
      "core": "Req",
      "role": "Topic",
      "codelist": null,
      "codelist_codes": [],
      "codelist_href": null,
      "description": "Topic variable for an event observation, which is the verbatim or pre-specified name of the event."
    },
    {
      "order": "10",
      "name": "BEMODIFY",
      "label": "Modified Reported Term",
      "type": "Char",
      "length": null,
      "core": "Perm",
      "role": "Synonym Qualifier",
      "codelist": null,
      "codelist_codes": [],
      "codelist_href": null,
      "description": "If the value for BETERM is modified for coding purposes, then the modified text is placed here."
    },
    {
      "order": "11",
      "name": "BEDECOD",
      "label": "Dictionary-Derived Term",
      "type": "Char",
      "length": null,
      "core": "Perm",
      "role": "Synonym Qualifier",
      "codelist": "Version-agnostic anchor resource for codelist C124297",
      "codelist_codes": [
        "C124297"
      ],
      "codelist_href": "/mdr/root/ct/sdtmct/codelists/C124297",
      "description": "Dictionary-derived text description of BETERM or BEMODIFY, if applicable."
    },
    {
      "order": "12",
      "name": "BECAT",
      "label": "Category for Biospecimen Event",
      "type": "Char",
      "length": null,
      "core": "Perm",
      "role": "Grouping Qualifier",
      "codelist": null,
      "codelist_codes": [],
      "codelist_href": null,
      "description": "Used to define a category of topic-variable values. Example: COLLECTION, PREPARATION, TRANSPORT."
    },
    {
      "order": "13",
      "name": "BESCAT",
      "label": "Subcategory for Biospecimen Event",
      "type": "Char",
      "length": null,
      "core": "Perm",
      "role": "Grouping Qualifier",
      "codelist": null,
      "codelist_codes": [],
      "codelist_href": null,
      "description": "A further categorization of BECAT values."
    },
    {
      "order": "14",
      "name": "BELOC",
      "label": "Anatomical Location of Event",
      "type": "Char",
      "length": null,
      "core": "Perm",
      "role": "Record Qualifier",
      "codelist": "Version-agnostic anchor resource for codelist C74456",
      "codelist_codes": [
        "C74456"
      ],
      "codelist_href": "/mdr/root/ct/sdtmct/codelists/C74456",
      "description": "Describes the anatomical location relevant for the event (e.g. BRAIN, LUNG)."
    },
    {
      "order": "15",
      "name": "BEPARTY",
      "label": "Accountable Party",
      "type": "Char",
      "length": null,
      "core": "Perm",
      "role": "Record Qualifier",
      "codelist": null,
      "codelist_codes": [],
      "codelist_href": null,
      "description": "Party accountable for the transferable object (e.g. specimen) as a result of the activity performed in the associated BETERM variable. The party could be an individual (e.g., subject), an organization (e.g., sponsor), or a location that is a proxy for an individual or organization (e.g., site). It is usually a somewhat general term that is further identified in the BEPRTYID variable."
    },
    {
      "order": "16",
      "name": "BEPRTYID",
      "label": "Identification of Accountable Party",
      "type": "Char",
      "length": null,
      "core": "Perm",
      "role": "Record Qualifier",
      "codelist": null,
      "codelist_codes": [],
      "codelist_href": null,
      "description": "Identification of the specific party accountable for the transferable object (e.g. Specimen) after the action in BETERM is taken. Used in conjunction with BEPARTY."
    },
    {
      "order": "17",
      "name": "VISITNUM",
      "label": "Visit Number",
      "type": "Num",
      "length": null,
      "core": "Exp",
      "role": "Timing",
      "codelist": null,
      "codelist_codes": [],
      "codelist_href": null,
      "description": "Clinical encounter number. Numeric version of VISIT, used for sorting."
    },
    {
      "order": "18",
      "name": "VISIT",
      "label": "Visit Name",
      "type": "Char",
      "length": null,
      "core": "Perm",
      "role": "Timing",
      "codelist": null,
      "codelist_codes": [],
      "codelist_href": null,
      "description": "Protocol-defined description of clinical encounter."
    },
    {
      "order": "19",
      "name": "VISITDY",
      "label": "Planned Study Day of Visit",
      "type": "Num",
      "length": null,
      "core": "Perm",
      "role": "Timing",
      "codelist": null,
      "codelist_codes": [],
      "codelist_href": null,
      "description": "Planned study day of VISIT. Should be an integer."
    },
    {
      "order": "20",
      "name": "BEDTC",
      "label": "Date/Time of Specimen Collection",
      "type": "Char",
      "length": null,
      "core": "Exp",
      "role": "Timing",
      "codelist": null,
      "codelist_codes": [],
      "codelist_href": null,
      "description": "Date and time of specimen collection."
    },
    {
      "order": "21",
      "name": "BESTDTC",
      "label": "Start Date/Time of Biospecimen Event",
      "type": "Char",
      "length": null,
      "core": "Exp",
      "role": "Timing",
      "codelist": null,
      "codelist_codes": [],
      "codelist_href": null,
      "description": "Start date/time of the event."
    },
    {
      "order": "22",
      "name": "BEENDTC",
      "label": "End Date/Time of Biospecimen Event",
      "type": "Char",
      "length": null,
      "core": "Exp",
      "role": "Timing",
      "codelist": null,
      "codelist_codes": [],
      "codelist_href": null,
      "description": "End date/time of the event."
    },
    {
      "order": "23",
      "name": "BESTDY",
      "label": "Study Day of Start of Biospecimen Event",
      "type": "Num",
      "length": null,
      "core": "Perm",
      "role": "Timing",
      "codelist": null,
      "codelist_codes": [],
      "codelist_href": null,
      "description": "Actual study day of start of observation expressed in integer days relative to the sponsor-defined RFSTDTC in Demographics."
    },
    {
      "order": "24",
      "name": "BEENDY",
      "label": "Study Day of End of Biospecimen Event",
      "type": "Num",
      "length": null,
      "core": "Perm",
      "role": "Timing",
      "codelist": null,
      "codelist_codes": [],
      "codelist_href": null,
      "description": "Actual study day of end of observation expressed in integer days relative to the sponsor-defined RFSTDTC in Demographics."
    },
    {
      "order": "25",
      "name": "BEDUR",
      "label": "Duration of Biospecimen Event",
      "type": "Char",
      "length": null,
      "core": "Perm",
      "role": "Timing",
      "codelist": null,
      "codelist_codes": [],
      "codelist_href": null,
      "description": "Collected duration and unit of a biospecimen event. Used only if collected on the CRF and not derived from start and end date/times. Example: P1DT2H (for 1 day, 2 hours)."
    }
  ],
  "variable_summary": {
    "required": 5,
    "expected": 5,
    "permissible": 15
  },
  "codelist_codes_used": [
    "C124297",
    "C74456"
  ],
  "fetched_at": "2025-12-26T22:12:26.917863"
}